Folder: MachineLearningMUN/Assignment 2

File: train.csv
Cement_component1__kgInAM_3Mixture_,BlastFurnaceSlag_component2__kgInAM_3Mixture_,FlyAsh_component3__kgInAM_3Mixture_,Water_component4__kgInAM_3Mixture_,Superplasticizer_component5__kgInAM_3Mixture_,CoarseAggregate_component6__kgInAM_3Mixture_,FineAggregate_component7__kgInAM_3Mixture_,Age_day_,ConcreteCompressiveStrength_MPa_Megapascals_
153,145,0,178,8,1000,822,28,19.0089
143.8,136.3,106.2,178.1,7.5,941.5,774.3,28,26.1477
157,214,152,200,9,819,704,28,33.0535
385,0,0,186,0,966,763,3,14.6996
173.54,50.05,173.53,164.77,6.47,1006.2,793.5,56,53.7722
190.34,0,125.18,161.85,9.88,1088.1,802.59,56,38.5624
212.52,0,100.37,159.32,8.71,1007.8,903.59,56,42.5476
238.05,0,94.11,186.66,7,949.91,847.01,14,25.6899
173.81,93.37,159.9,172.34,9.73,1007.2,746.6,14,29.5509
153,239,0,200,6,1002,684,28,26.8551
233.81,0,94.58,197.89,4.567,947.04,852.16,3,10.3835
148.1,0,136.6,158.1,16.1,1001.8,830.1,28,17.9595
236,0,0,194,0,968,885,3,6.46728
266.2,112.3,87.5,177.9,10.4,909.7,744.5,28,39.4215
249.1,0,98.75,158.11,12.8,987.76,889.01,3,15.3615
313,161,0,178,10,917,759,28,52.4415
198.6,132.4,0,192,0,978.4,825.5,3,9.13142
277,0,0,191,0,968,856,360,33.7016
362.6,189,0,164.9,11.6,944.7,755.8,7,55.8958
251.81,0,99.94,146.14,12.35,1006,899.76,56,44.1403
531.3,0,0,141.8,28.2,852.1,893.7,28,56.3991
362.6,189,0,164.9,11.6,944.7,755.8,56,77.2972
312.9,160.5,0,177.6,9.6,916.6,759.5,28,52.4464
178.03,129.8,118.6,179.94,3.57,1007.3,746.8,14,34.2394
190.34,0,125.18,161.85,9.88,1088.1,802.59,3,9.44582
194.68,0,100.52,170.17,7.48,998,901.8,100,44.2781
170.3,155.5,0,185.7,0,1026.6,724.3,28,25.7264
305.3,203.5,0,203.5,0,965.4,631,28,43.377
339,0,0,197,0,968,781,14,27.0412
362.6,189,0,164.9,11.6,944.7,755.8,56,77.2972
250,0,95.69,187.42,5.53,956.86,861.17,3,13.8171
252,97,76,194,8,835,821,28,33.3982
375,0,0,186,0,1038,758,28,38.2108
323.7,282.8,0,183.8,10.3,942.7,659.9,56,80.1998
475,0,0,228,0,932,594,7,38.6038
339,0,0,197,0,968,781,90,35.1702
212.57,0,100.39,159.35,10.37,1003.8,903.79,14,25.3727
136.4,161.6,125.8,171.6,10.4,922.6,764.4,28,29.0731
540,0,0,173,0,1125,613,28,67.3066
393,0,0,192,0,940.6,785.6,7,27.7424
222.36,0,96.67,189.29,4.46,967.08,870.32,100,40.7136
190,190,0,228,0,932,670,365,53.6923
143.6,0,174.9,158.4,17.9,942.7,844.5,28,15.4236
336.5,0,0,181.9,3.4,985.8,816.8,28,44.8683
427.5,47.5,0,228,0,932,594,90,41.543
165,128.5,132.1,175.06,8.08,1005.8,746.6,14,33.088
277,117,91,191,7,946,666,28,43.5749
155,184,143,194,9,880,699,28,28.9856
220.8,147.2,0,185.7,0,1055,744.3,7,13.089
135.7,203.5,0,185.7,0,1076.2,759.3,7,7.50701
146,230,0,202,3,827,872,28,33.0604
285,190,0,163,7.6,1031,685,28,53.5792
143.7,170.2,132.6,191.6,8.5,814.1,805.3,28,29.8709
331,0,0,192,0,978,825,180,38.9968
480,0,0,192,0,936,721,90,54.2756
388.6,97.1,0,157.9,12.1,852.1,925.7,7,34.9013
350,0,0,203,0,974,775,28,27.3377
186.2,124.1,0,185.7,0,1083.4,764.3,7,7.99585
233.81,0,94.58,197.89,4.567,947.04,852.16,28,22.8354
350,0,0,203,0,974,775,7,18.1263
303.6,139.9,0,213.5,6.2,895.5,722.5,28,33.4196
212,141.3,0,203.5,0,973.4,750,3,6.80858
194.68,0,100.52,165.62,7.48,1006.4,905.9,56,33.9636
366,187,0,191,7,824,757,28,65.907
350,0,0,203,0,974,775,90,31.3505
122.6,183.9,0,203.5,0,958.2,800.1,7,10.3546
387,20,94,157,13.93,938,845,3,25.5106
349,0,0,192,0,1047,806,180,41.0514
255.5,170.3,0,185.7,0,1026.6,724.3,7,17.2362
238.2,158.8,0,185.7,0,1040.6,734.3,7,15.6911
212,141.3,0,203.5,0,973.4,750,90,39.7
286.3,200.9,0,144.7,11.2,1004.6,803.7,91,76.8007
310,0,0,192,0,970,850,28,27.9238
148,0,182,181,15,839,884,28,15.5201
143,169.4,142.7,190.7,8.4,967.4,643.5,28,29.7261
255,0,0,192,0,889.8,945,3,8.20407
342,38,0,228,0,932,670,365,56.142
313.3,262.2,0,175.5,8.6,1046.9,611.8,28,59.7983
304.8,0,99.6,196,9.8,959.4,705.2,28,30.1232
310,0,0,192,0,1012,830,28,27.8273
388.6,97.1,0,157.9,12.1,852.1,925.7,91,57.5988
290.35,0,96.18,168.08,9.41,961.18,865,100,48.9735
212.57,0,100.39,159.35,10.37,1003.8,903.79,100,47.7393
148,0,137,158,16,1002,830,28,17.954
213.76,98.06,24.52,181.74,6.65,1066,785.52,100,49.9732
213.74,0,174.74,154.79,10.16,1053.5,776.35,28,40.1482
425,106.3,0,153.5,16.5,852.1,887.1,7,49.201
231.75,0,121.62,173.96,6.72,1056.4,778.45,100,45.8364
275.07,0,121.35,159.48,9.9,1053.6,777.5,14,38.7692
446,24,79,162,11.61,967,712,7,52.0072
350,0,0,203,0,974,775,180,32.7225
397,0,0,185.7,0,1040.6,734.3,28,33.0824
469,117.2,0,137.8,32.2,852.1,840.5,3,40.1965
233.81,0,94.58,197.89,4.567,947.04,852.16,56,27.6618
231.75,0,121.62,173.96,6.72,1056.4,778.45,28,33.7292
173.54,50.05,173.53,164.77,6.47,1006.2,793.5,100,56.0613
167,75.4,167,164.03,7.91,1007.3,770.1,28,41.4099
425,106.3,0,153.5,16.5,852.1,887.1,56,64.3005
213.5,0,174.24,159.21,11.66,1043.6,771.9,28,44.6367
375,93.8,0,126.6,23.4,852.1,992.6,28,56.6956
154.8,183.4,0,193.3,9.1,877.2,867.7,28,23.7869
333,17.5,163,167,17.9,996,652,28,47.2774
375,93.8,0,126.6,23.4,852.1,992.6,56,60.1981
255.5,170.3,0,185.7,0,1026.6,724.3,28,32.0517
296,0,0,186,0,1090,769,28,25.1797
190.68,0,125.4,162.14,7.77,1090,804.01,3,15.0444
238.1,0,0,185.7,0,1118.8,789.3,28,17.5761
275,0,0,183,0,1088,808,7,14.2032
158.8,238.2,0,185.7,0,1040.6,734.3,7,9.6175
380,0,0,228,0,932,670,90,52.9083
135.7,203.5,0,185.7,0,1076.2,759.3,28,18.1987
289,134,0,195,6,924,760,28,46.2432
376,0,0,214.6,0,1003.5,762.36,56,36.3009
250,0,95.69,187.42,5.53,956.86,861.17,28,29.22
252,0,0,185,0,1111,784,28,19.6914
203.5,305.3,0,203.5,0,963.4,630,90,51.8638
251.37,0,118.27,188.45,5.75,1028.4,757.73,28,29.6544
182.04,45.21,121.97,170.21,8.19,1059.4,780.65,100,48.6701
152,178,139,168,18,944,695,28,36.3492
379.5,151.2,0,153.9,15.9,1134.3,605,7,47.0981
296,0,0,192,0,1085,765,90,29.3924
480,0,0,192,0,936,721,3,24.3937
262,111,86,195,5,895,733,28,33.7154
296,0,107,221,11,819,778,28,31.4194
190.68,0,125.4,162.14,7.77,1090,804.01,28,26.4
491,26,123,210,3.93,882,699,56,59.5904
252.5,0,0,185.7,0,1111.6,784.3,28,19.7652
145.4,0,178.9,201.7,7.8,824,868.7,28,10.5359
531.3,0,0,141.8,28.2,852.1,893.7,91,59.1984
194.68,0,100.52,165.62,7.48,1006.4,905.9,14,24.9866
237.5,237.5,0,228,0,932,594,90,33.1169
194.68,0,100.52,170.17,7.48,998,901.8,14,24.2833
212.07,0,121.62,180.31,5.69,1057.6,779.32,56,34.2049
307,0,0,193,0,968,812,365,36.1492
475,0,0,228,0,932,594,180,42.6206
427.5,47.5,0,228,0,932,594,270,43.013
540,0,0,162,2.5,1055,676,28,61.8874
287,121,94,188,9,904,696,28,41.9408
522,0,0,146,0,896,896,7,50.511
251.37,0,118.27,192.94,5.75,1043.6,754.3,100,40.1482
318.8,212.5,0,155.7,14.3,852.1,880.4,28,55.4959
491,26,123,210,3.93,882,699,3,25.6091
166.8,250.2,0,203.5,0,975.6,692.6,7,15.7483
150.9,0,183.9,166.6,11.6,991.2,772.2,28,15.5697
387,20,94,157,11.61,938,845,28,46.6844
281,0,0,186,0,1104,774,28,22.4355
277,0,0,191,0,968,856,28,25.9657
362.6,189,0,164.9,11.6,944.7,755.8,28,71.2987
212.07,0,121.62,180.31,5.69,1057.6,779.32,3,12.4726
222.36,0,96.67,189.29,4.46,967.08,870.32,14,24.4488
190.34,0,125.18,166.61,9.88,1079,798.9,14,19.4156
379.5,151.2,0,153.9,15.9,1134.3,605,28,52.2002
213.76,98.06,24.52,181.74,6.65,1066,785.52,14,17.8367
165,0.02,143.57,163.81,0,1005.6,900.9,14,16.8784
252.31,0,98.75,146.25,14.17,987.76,889.01,14,42.2925
376,0,0,214.6,0,1003.5,762.36,100,43.0578
141.3,212,0,203.5,0,971.8,748.5,28,29.8922
190.34,0,125.18,166.61,9.88,1079,798.9,28,24.8487
425,106.3,0,153.5,16.5,852.1,887.1,7,49.201
250.2,166.8,0,203.5,0,977.6,694.1,3,9.73126
246.83,0,125.08,143.3,11.99,1086.8,800.89,3,23.5249
332.5,142.5,0,228,0,932,594,28,33.019
132,206.5,160.9,178.9,5.5,866.9,735.6,28,33.3065
298,137,107,201,6,878,655,28,53.524
313.3,262.2,0,175.5,8.6,1046.9,611.8,56,64.9004
200,133,0,192,0,965.4,806.2,90,43.2508
387,20,94,157,14.32,938,845,56,56.3371
145,0,179,202,8,824,869,28,10.5352
212.07,0,121.62,180.31,5.69,1057.6,779.32,28,24.9039
446,24,79,162,11.64,967,712,28,51.0212
213.76,98.06,24.52,181.74,6.65,1066,785.52,3,13.1828
296,0,0,192,0,1085,765,28,21.6495
266,114,0,228,0,932,670,270,51.7328
167,187,195,185,7,898,636,28,23.8903
300,0,0,184,0,1075,795,28,26.8482
167.35,129.9,128.62,175.46,7.79,1006.3,746.6,3,14.9409
251.37,0,118.27,188.45,6.35,1028.4,757.73,28,32.6605
155.6,243.5,0,180.3,10.7,1022,697.7,28,37.3634
289,0,0,192,0,913.2,895.3,3,11.6549
366,187,0,191.3,6.6,824.3,756.9,28,65.9091
190,190,0,228,0,932,670,270,50.6551
192,288,0,192,0,929.8,716.1,7,21.4806
446,24,79,162,11.64,967,712,56,55.2546
238.05,0,94.11,186.66,7,949.91,847.01,28,30.2335
190.34,0,125.18,166.61,9.88,1079,798.9,100,33.5637
375,93.8,0,126.6,23.4,852.1,992.6,91,62.501
446,24,79,162,11.64,967,712,3,23.3457
289,0,0,192,0,913.2,895.3,28,25.5734
190,190,0,228,0,932,670,90,42.3269
475,0,0,228,0,932,594,90,42.229
374,0,0,190,7,1013,730,28,39.0519
480,0,0,192,0,936.2,712.2,90,54.3155
475,0,0,228,0,932,594,270,42.1311
446,24,79,162,11.64,967,712,28,44.4229
152,0,112,184,8,992,816,28,12.1761
297.16,0,117.54,174.8,9.52,1022.8,753.45,28,47.4015
166.09,0,163.27,176.46,4.49,1058.6,780.09,14,25.483
427.5,47.5,0,228,0,932,594,180,41.8367
469,117.2,0,137.8,32.2,852.1,840.5,91,70.6989
469,117.2,0,137.8,32.2,852.1,840.5,7,54.8961
349,0,0,192,0,1056,809,120,40.8583